{
    "resourceType": "Questionnaire",
    "id": "extract-complex-template",
    "meta": {
        "profile": [
            "http://hl7.org/fhir/uv/sdc/StructureDefinition/sdc-questionnaire-extr-template"
        ]
    },
    "extension": [
        {
            "url": "http://hl7.org/fhir/uv/sdc/StructureDefinition/sdc-questionnaire-extractAllocateId",
            "valueString": "NewPatientId"
        }
    ],
    "contained": [
        {
            "resourceType": "Patient",
            "id": "patTemplate",
            "identifier": [
                {
                    "extension": [
                        {
                            "url": "http://hl7.org/fhir/uv/sdc/StructureDefinition/sdc-questionnaire-templateExtractContext",
                            "valueString": "item.where(linkId = 'ihi').answer.value"
                        }
                    ],
                    "type": {
                        "text": "National Identifier (IHI)"
                    },
                    "system": "http://example.org/nhio",
                    "_value": {
                        "extension": [
                            {
                                "url": "http://hl7.org/fhir/uv/sdc/StructureDefinition/sdc-questionnaire-templateExtractValue",
                                "valueString": "first()"
                            }
                        ]
                    }
                }
            ],
            "name": [
                {
                    "extension": [
                        {
                            "url": "http://hl7.org/fhir/uv/sdc/StructureDefinition/sdc-questionnaire-templateExtractContext",
                            "valueString": "item.where(linkId = 'name')"
                        }
                    ],
                    "_text": {
                        "extension": [
                            {
                                "url": "http://hl7.org/fhir/uv/sdc/StructureDefinition/sdc-questionnaire-templateExtractValue",
                                "valueString": "item.where(linkId='given' or linkId='family').answer.value.join(' ')"
                            }
                        ]
                    },
                    "_family": {
                        "extension": [
                            {
                                "url": "http://hl7.org/fhir/uv/sdc/StructureDefinition/sdc-questionnaire-templateExtractValue",
                                "valueString": "item.where(linkId = 'family').answer.value.first()"
                            }
                        ]
                    },
                    "_given": [
                        {
                            "extension": [
                                {
                                    "url": "http://hl7.org/fhir/uv/sdc/StructureDefinition/sdc-questionnaire-templateExtractValue",
                                    "valueString": "item.where(linkId = 'given').answer.value"
                                }
                            ]
                        }
                    ]
                }
            ],
            "gender": "unknown",
            "_gender": {
                "extension": [
                    {
                        "url": "http://hl7.org/fhir/uv/sdc/StructureDefinition/sdc-questionnaire-templateExtractValue",
                        "valueString": "item.where(linkId = 'gender').answer.value.first().code"
                    }
                ]
            },
            "telecom": [
                {
                    "extension": [
                        {
                            "url": "http://hl7.org/fhir/uv/sdc/StructureDefinition/sdc-questionnaire-templateExtractContext",
                            "valueString": "item.where(linkId = 'mobile-phone').answer.value"
                        }
                    ],
                    "use": "mobile",
                    "_value": {
                        "extension": [
                            {
                                "url": "http://hl7.org/fhir/uv/sdc/StructureDefinition/sdc-questionnaire-templateExtractValue",
                                "valueString": "first()"
                            }
                        ]
                    },
                    "system": "phone"
                }
            ]
        },
        {
            "resourceType": "RelatedPerson",
            "id": "rpTemplate",
            "patient": {
                "extension": [
                    {
                        "url": "http://hl7.org/fhir/uv/sdc/StructureDefinition/sdc-questionnaire-templateExtractValue",
                        "valueString": "%NewPatientId"
                    }
                ]
            },
            "relationship": [
                {
                    "coding": [
                        {
                            "extension": [
                                {
                                    "url": "http://hl7.org/fhir/uv/sdc/StructureDefinition/sdc-questionnaire-templateExtractValue",
                                    "valueString": "item.where(linkId = 'relationship').answer.value.first()"
                                }
                            ]
                        }
                    ]
                }
            ],
            "name": [
                {
                    "_text": {
                        "extension": [
                            {
                                "url": "http://hl7.org/fhir/uv/sdc/StructureDefinition/sdc-questionnaire-templateExtractValue",
                                "valueString": "item.where(linkId = 'contact-name').answer.value.first()"
                            }
                        ]
                    }
                }
            ],
            "telecom": [
                {
                    "extension": [
                        {
                            "url": "http://hl7.org/fhir/uv/sdc/StructureDefinition/sdc-questionnaire-templateExtractContext",
                            "valueString": "item.where(linkId = 'phone').answer.value"
                        }
                    ],
                    "system": "phone",
                    "_value": {
                        "extension": [
                            {
                                "url": "http://hl7.org/fhir/uv/sdc/StructureDefinition/sdc-questionnaire-templateExtractValue",
                                "valueString": "first()"
                            }
                        ]
                    },
                    "use": "mobile"
                }
            ]
        },
        {
            "resourceType": "Observation",
            "id": "obsTemplateHeight",
            "status": "final",
            "category": [
                {
                    "coding": [
                        {
                            "system": "http://terminology.hl7.org/CodeSystem/observation-category",
                            "code": "vital-signs"
                        }
                    ]
                }
            ],
            "code": {
                "coding": [
                    {
                        "system": "http://loinc.org",
                        "code": "8302-2",
                        "display": "Body height"
                    }
                ]
            },
            "subject": {
                "extension": [
                    {
                        "url": "http://hl7.org/fhir/uv/sdc/StructureDefinition/sdc-questionnaire-templateExtractValue",
                        "valueString": "%NewPatientId"
                    }
                ]
            },
            "effectiveDateTime": "1900-01-01",
            "_effectiveDateTime": {
                "extension": [
                    {
                        "url": "http://hl7.org/fhir/uv/sdc/StructureDefinition/sdc-questionnaire-templateExtractValue",
                        "valueString": "%resource.authored"
                    }
                ]
            },
            "_issued": {
                "extension": [
                    {
                        "url": "http://hl7.org/fhir/uv/sdc/StructureDefinition/sdc-questionnaire-templateExtractValue",
                        "valueString": "%resource.authored"
                    }
                ]
            },
            "performer": [
                {
                    "extension": [
                        {
                            "url": "http://hl7.org/fhir/uv/sdc/StructureDefinition/sdc-questionnaire-templateExtractValue",
                            "valueString": "%resource.author"
                        }
                    ]
                }
            ],
            "valueQuantity": {
                "system": "http://unitsofmeasure.org",
                "unit": "cm",
                "code": "cm",
                "_value": {
                    "extension": [
                        {
                            "url": "http://hl7.org/fhir/uv/sdc/StructureDefinition/sdc-questionnaire-templateExtractValue",
                            "valueString": "answer.value * 100"
                        }
                    ]
                }
            },
            "derivedFrom": [
                {
                    "extension": [
                        {
                            "url": "http://hl7.org/fhir/uv/sdc/StructureDefinition/sdc-questionnaire-templateExtractContext",
                            "valueString": "%resource.id"
                        }
                    ],
                    "_reference": {
                        "extension": [
                            {
                                "url": "http://hl7.org/fhir/uv/sdc/StructureDefinition/sdc-questionnaire-templateExtractValue",
                                "valueString": "'QuestionnaireResponse/' + %resource.id"
                            }
                        ]
                    }
                }
            ]
        },
        {
            "resourceType": "Observation",
            "id": "obsTemplateWeight",
            "status": "final",
            "category": [
                {
                    "coding": [
                        {
                            "system": "http://terminology.hl7.org/CodeSystem/observation-category",
                            "code": "vital-signs"
                        }
                    ]
                }
            ],
            "code": {
                "coding": [
                    {
                        "system": "http://loinc.org",
                        "code": "29463-7",
                        "display": "Weight"
                    }
                ]
            },
            "subject": {
                "extension": [
                    {
                        "url": "http://hl7.org/fhir/uv/sdc/StructureDefinition/sdc-questionnaire-templateExtractValue",
                        "valueString": "%NewPatientId"
                    }
                ]
            },
            "effectiveDateTime": "1900-01-01",
            "_effectiveDateTime": {
                "extension": [
                    {
                        "url": "http://hl7.org/fhir/uv/sdc/StructureDefinition/sdc-questionnaire-templateExtractValue",
                        "valueString": "%resource.authored"
                    }
                ]
            },
            "_issued": {
                "extension": [
                    {
                        "url": "http://hl7.org/fhir/uv/sdc/StructureDefinition/sdc-questionnaire-templateExtractValue",
                        "valueString": "%resource.authored"
                    }
                ]
            },
            "performer": [
                {
                    "extension": [
                        {
                            "url": "http://hl7.org/fhir/uv/sdc/StructureDefinition/sdc-questionnaire-templateExtractValue",
                            "valueString": "%resource.author"
                        }
                    ]
                }
            ],
            "valueQuantity": {
                "system": "http://unitsofmeasure.org",
                "unit": "kg",
                "code": "kg",
                "_value": {
                    "extension": [
                        {
                            "url": "http://hl7.org/fhir/uv/sdc/StructureDefinition/sdc-questionnaire-templateExtractValue",
                            "valueString": "answer.value"
                        }
                    ]
                }
            },
            "derivedFrom": [
                {
                    "extension": [
                        {
                            "url": "http://hl7.org/fhir/uv/sdc/StructureDefinition/sdc-questionnaire-templateExtractContext",
                            "valueString": "%resource.id"
                        }
                    ],
                    "_reference": {
                        "extension": [
                            {
                                "url": "http://hl7.org/fhir/uv/sdc/StructureDefinition/sdc-questionnaire-templateExtractValue",
                                "valueString": "'QuestionnaireResponse/' + %resource.id"
                            }
                        ]
                    }
                }
            ]
        },
        {
            "resourceType": "Observation",
            "id": "obsTemplate",
            "status": "final",
            "code": {
                "coding": [
                    {
                        "system": "http://example.org/sdh/demo/CodeSystem/cc-screening-codes",
                        "code": "sigmoidoscopy-complication"
                    }
                ]
            },
            "subject": {
                "extension": [
                    {
                        "url": "http://hl7.org/fhir/uv/sdc/StructureDefinition/sdc-questionnaire-templateExtractValue",
                        "valueString": "%NewPatientId"
                    }
                ]
            },
            "effectiveDateTime": "1900-01-01",
            "_effectiveDateTime": {
                "extension": [
                    {
                        "url": "http://hl7.org/fhir/uv/sdc/StructureDefinition/sdc-questionnaire-templateExtractValue",
                        "valueString": "%resource.authored"
                    }
                ]
            },
            "_issued": {
                "extension": [
                    {
                        "url": "http://hl7.org/fhir/uv/sdc/StructureDefinition/sdc-questionnaire-templateExtractValue",
                        "valueString": "%resource.authored"
                    }
                ]
            },
            "performer": [
                {
                    "extension": [
                        {
                            "url": "http://hl7.org/fhir/uv/sdc/StructureDefinition/sdc-questionnaire-templateExtractValue",
                            "valueString": "%resource.author"
                        }
                    ]
                }
            ],
            "_valueBoolean": {
                "extension": [
                    {
                        "url": "http://hl7.org/fhir/uv/sdc/StructureDefinition/sdc-questionnaire-templateExtractValue",
                        "valueString": "answer.value"
                    }
                ]
            },
            "derivedFrom": [
                {
                    "extension": [
                        {
                            "url": "http://hl7.org/fhir/uv/sdc/StructureDefinition/sdc-questionnaire-templateExtractContext",
                            "valueString": "%resource.id"
                        }
                    ],
                    "_reference": {
                        "extension": [
                            {
                                "url": "http://hl7.org/fhir/uv/sdc/StructureDefinition/sdc-questionnaire-templateExtractValue",
                                "valueString": "'QuestionnaireResponse/' + %resource.id"
                            }
                        ]
                    }
                }
            ]
        }
    ],
    "url": "http://hl7.org/fhir/uv/sdc/Questionnaire/extract-complex-template",
    "status": "draft",
    "experimental": true,
    "title": "Complex Extract Demonstration - Template",
    "name": "ExtractComplexTemplate",
    "description": "Complex template-based extraction example",
    "publisher": "Brian Postlethwaite",
    "item": [
        {
            "extension": [
                {
                    "url": "http://hl7.org/fhir/uv/sdc/StructureDefinition/sdc-questionnaire-templateExtract",
                    "extension":[
                        {
                            "url": "template",
                            "valueReference": {
                                "reference": "#patTemplate"
                            }
                        },
                        {
                            "url": "fullUrl",
                            "valueString": "%NewPatientId"
                        }
                    ]
                }
            ],
            "linkId": "patient",
            "text": "Patient Information",
            "type": "group",
            "item": [
                {
                    "linkId": "name",
                    "text": "Name",
                    "type": "group",
                    "repeats": true,
                    "item": [
                        {
                            "linkId": "given",
                            "text": "Given Name(s)",
                            "type": "string",
                            "repeats": true
                        },
                        {
                            "linkId": "family",
                            "text": "Family/Surname",
                            "type": "string"
                        }
                    ]
                },
                {
                    "linkId": "gender",
                    "text": "Gender",
                    "type": "choice",
                    "answerValueSet": "http://hl7.org/fhir/ValueSet/administrative-gender"
                },
                {
                    "linkId": "dob",
                    "text": "Date of Birth",
                    "type": "date"
                },
                {
                    "linkId": "ihi",
                    "text": "National Identifier (IHI)",
                    "type": "string"
                },
                {
                    "linkId": "mobile-phone",
                    "text": "Mobile Phone number",
                    "type": "string"
                }
            ]
        },
        {
            "extension": [
                {
                    "url": "http://hl7.org/fhir/uv/sdc/StructureDefinition/sdc-questionnaire-templateExtract",
                    "extension":[
                        {
                            "url": "template",
                            "valueReference": {
                                "reference": "#rpTemplate"
                            }
                        }
                    ]
                }
            ],
            "linkId": "contacts",
            "text": "Contacts",
            "type": "group",
            "repeats": true,
            "item": [
                {
                    "linkId": "contact-name",
                    "text": "Name",
                    "type": "string"
                },
                {
                    "linkId": "relationship",
                    "text": "Relationship",
                    "type": "choice",
                    "answerValueSet": "http://hl7.org/fhir/ValueSet/patient-contactrelationship"
                },
                {
                    "linkId": "phone",
                    "text": "Phone",
                    "type": "string"
                }
            ]
        },
        {
            "linkId": "obs",
            "text": "Observations",
            "type": "group",
            "item": [
                {
                    "extension": [
                        {
                            "url": "http://hl7.org/fhir/uv/sdc/StructureDefinition/sdc-questionnaire-templateExtract",
                            "extension":[
                                {
                                    "url": "template",
                                    "valueReference": {
                                        "reference": "#obsTemplateHeight"
                                    }
                                }
                            ]
                        }
                    ],
                    "linkId": "height",
                    "text": "What is your current height (m)",
                    "type": "decimal"
                },
                {
                    "extension": [
                        {
                            "url": "http://hl7.org/fhir/uv/sdc/StructureDefinition/sdc-questionnaire-templateExtract",
                            "extension":[
                                {
                                    "url": "template",
                                    "valueReference": {
                                        "reference": "#obsTemplateWeight"
                                    }
                                }
                            ]
                        }
                    ],
                    "linkId": "weight",
                    "text": "What is your current weight (kg)",
                    "type": "decimal"
                },
                {
                    "extension": [
                        {
                            "url": "http://hl7.org/fhir/uv/sdc/StructureDefinition/sdc-questionnaire-templateExtract",
                            "extension":[
                                {
                                    "url": "template",
                                    "valueReference": {
                                        "reference": "#obsTemplate"
                                    }
        
                                }
                            ]
                        }
                    ],
                    "linkId": "complication",
                    "text": "Have you had a Sigmoidoscopy Complication (concern with invasive procedure, for example)",
                    "type": "boolean"
                }
            ]
        }
    ]
}